Folder: villarquemado

Note: README.md
# villarquemado
Supplementary material, code and rawdata for the article "STRONG CONTINENTALITY AND EFFECTIVE MOISTURE DROVE UNFORESEEN VEGETATION DYNAMICS SINCE THE LAST INTERGLACIAL AT INLAND MEDITERRANEAN AREAS: THE VILLARQUEMADO SEQUENCE IN NE IBERIA"- This paper has been currently accepted in Quaternary Science Reviews.

File: geochemistry_XRF_VIL.csv
AgeCal (Valero-Garces et al 2019)),Section,Depth (mm from section top),Composite depth (mm),Field ID,Sec Depth T (cm),position (mm from section top ITRAX),sample surface,validity,kcps,Si,Ca,Ti,Mn,Fe,Se,Rb,Sr,Y,Zr,Pb,inc,coh
2730.1,2,20,620,VIL05-1B-2T,2,20.04,6.57,1,24765,159,324066,243,347,9496,390,128,12166,246,1999,403,42411,20508
5973.8,3,20,1284.4,VIL05-1B-3T,2,720.04,6.73,1,25638,170,344975,168,351,6031,404,0,13340,358,1860,397,41891,20342
9718.2,4,140,2060,VIL05-1B-4T,14,1330.04,6.94,1,26236,148,362836,79,393,7280,556,0,16761,322,1896,282,40149,20122
12545.2,5,150,2670,VIL05-1B-5T,15,150.04,6.97,1,21717,1365,123019,3875,490,65557,601,1599,8181,619,5213,348,51828,22366
14525.2,6,152.5,3263.35,VIL05-1B-6T,15.25,760.04,7.57,1,23624,1365,172481,3435,904,91535,454,1530,11500,551,3876,307,46652,22247
16895.3,7,380,3960.8,VIL05-1B-7T,38,1550.04,7.59,1,22367,1504,156164,3392,1397,79936,378,1475,7356,603,3678,375,45994,21587
19195,8,472.5,4652.5,VIL05-1B-8T,47.25,466.04,7.45,1,22603,680,200185,2146,998,49910,380,660,10834,528,3389,310,43957,21176
21073,9,477.5,5271.825,VIL05-1B-9T,47.75,705.04,7.65,1,25134,841,257712,1872,1828,79973,510,646,10268,595,2905,345,40686,21069
22781.4,11,400,6032,VIL05-1B-11T,40,400.04,7.37,1,24586,1331,193584,2817,1420,104348,378,1744,9389,447,3365,373,42612,21207
24040.1,12,410,6592.6,VIL05-1B-12T,41,1035.04,7.22,1,23830,1639,169979,3309,1044,97144,469,1496,6340,368,3571,359,44347,21163
25856.1,14,115,7409.25,VIL05-1B-14T,11.5,115.04,7.22,1,24293,1202,169291,3505,1558,121187,464,1636,7019,566,2958,428,43583,20913
26736.7,15,67.5,7967.5,VIL05-1B-15T,6.75,710.04,7.27,1,24228,1032,152213,3401,1643,130573,356,1702,5875,648,3139,700,45727,21273
27565.5,16,85,8645,VIL05-1B-16T,8.5,80.04,7.13,1,22729,917,198230,2077,786,64276,295,789,8745,247,3316,333,42324,20885
28309.5,17,102.5,9262.5,VIL05-1B-17T,10.25,695.04,6.71,1,20548,1925,170398,1269,557,28206,274,507,4344,179,2734,275,47030,21644
29036.6,18,112.5,9872.5,VIL05-1B-18T,11.25,1360.04,7.33,1,23710,1415,154510,3773,1021,115151,493,2173,5914,536,3015,422,45681,21621
29810.2,20,275,11032.5,VIL05-1B-20T,27.5,1640.04,7.39,1,25202,1307,165954,3145,1068,160458,198,1966,10341,844,2936,701,41955,19766
30203.3,21,467.5,11747.5,VIL05-1B-21T,46.75,1035.04,7.03,1,25176,703,246059,1792,1073,78516,314,940,17117,648,2733,432,42127,20876
30536,22,482.5,12362.5,VIL05-1B-22T,48.25,470.04,6.86,1,26928,453,369988,360,1679,16205,496,0,22386,382,2054,331,39394,20745
31654.4,23,502.5,12982.5,VIL05-1B-23T,50.25,1095.04,6.77,1,24387,289,294051,554,858,26026,389,250,20129,122,2080,447,39777,19868
33312.8,25,335,13615,VIL05-1B-25T,33.5,535.04,7.33,1,25353,528,283189,980,894,48084,503,664,16863,464,2160,421,42072,20316
34975.8,27,120,14260,VIL05-1B-27T,12,1310.04,7.36,1,25954,766,285586,1181,1056,53905,391,674,26257,534,2408,603,42264,21069
36740,28,127.5,14940.25,VIL05-1B-28T,12.75,945.04,7.16,1,26580,178,336945,199,795,14623,372,107,33236,356,2036,459,41328,20053
37719.8,29,250,15605,VIL05-1B-29T,25,240.04,8.02,1,24012,961,133577,3212,995,111660,585,2805,16479,744,3394,652,51493,21694
38496.3,30,265,16258.25,VIL05-1B-30T,26.5,855.04,8.15,1,24998,915,135964,3102,1364,130404,361,2733,17603,847,3217,638,51410,22031
39200.7,31,267.5,16882.85,VIL05-1B-31T,26.75,1475.04,7.91,1,24696,1014,119856,3569,1396,165994,359,2899,10862,485,3140,663,46567,21078
39837.2,32,300,17496,VIL05-1B-32T,30,300.04,7.02,1,23215,1045,155041,3111,1088,106611,567,2274,9361,664,2813,414,45686,21489
41222.5,35,125,18791.25,VIL05-1B-35T,12.5,940.04,7.06,1,24044,1137,186415,2477,1049,96637,456,1945,23961,522,2824,471,42705,20613
42000.7,36,155,19436.7,VIL05-1B-36T,15.5,220.04,6.99,1,24004,1079,210146,2002,925,78866,448,1684,24992,698,2716,426,40890,20621
42796.8,37,232.5,20159.475,VIL05-1B-37T,23.25,820.04,6.97,1,25190,706,246074,1463,1093,69331,429,1234,35537,735,2636,494,39123,20267
43817.9,38,255,20902.5,VIL05-1B-38T,25.5,1440.04,7.09,1,23744,1326,157738,2981,1253,109854,375,2690,13827,943,3208,450,46353,21686
44652.3,39,455,21662.3,VIL05-1B-39T,45.5,460.04,7.07,1,24166,1571,112330,4501,1193,153388,62,3689,7166,371,3232,382,47694,21587
45331.5,40,452.5,22294.65,VIL05-1B-40T,45.25,1075.04,7.22,1,24544,1332,117489,3954,1388,155957,220,3145,8163,416,2915,416,46271,20482
46185.9,42,150,22933,VIL05-1B-42T,15,155.04,6.46,0,22224,981,93942,3441,937,142303,226,2905,6984,873,3112,444,46020,19831
47436.1,43,252.5,23679.875,VIL05-1B-43T,25.25,280.04,8.13,1,25268,1307,107893,4020,1206,172375,231,3541,12124,815,3638,772,51007,21124
48354.6,44,430,24270,VIL05-1B-44T,43,1025.04,6.9,1,24052,1346,75084,4500,825,177713,337,4610,5518,546,3532,562,50651,20809
49382,46,85,24987.55,VIL05-1B-46T,8.5,1275.04,6.98,1,23365,1425,118530,3737,1947,143823,155,3165,8006,559,3308,299,43851,20190
50463.5,47,102.5,25665.575,VIL05-1B-47T,10.25,980.04,7.59,1,25032,695,272137,1252,1338,48583,207,840,30373,466,2420,312,40080,20268
51535,48,130,26295.2,VIL05-1B-48T,13,130.04,6.96,1,24743,552,272194,982,1190,34374,360,614,34051,436,2306,382,39805,19848
53612.5,50,330,27573.1,VIL05-1B-50T,33,985.04,6.96,1,24604,1508,92041,4216,1212,198877,225,4047,6378,811,3103,617,44802,20533
55063,52,145,28301.3,VIL05-1B-52T,14.5,150.04,7.12,1,24281,1421,102634,4089,792,194406,109,3327,5566,480,2883,525,42155,19297
56708.3,53,417.5,29105.85,VIL05-1B-53T,41.75,835.04,7.06,1,24028,883,250241,1756,1128,57138,356,852,13811,396,2499,399,40478,21086
57907.3,54,437.5,29730.625,VIL05-1B-54T,43.75,1450.04,7.21,1,23350,1436,154087,3942,541,104280,522,2054,9900,625,3511,399,45060,21337
59489.7,56,352.5,30584.075,VIL05-1B-56T,35.25,380.04,7.07,1,25462,677,311947,1357,1012,49382,376,387,8878,437,2097,292,36713,20138
62067.7,59,162.5,31962.5,VIL05-1B-59T,16.25,620.04,7.21,1,24944,1175,212373,2821,1196,108323,424,1342,8830,592,3052,362,41101,20832
63225.7,60,365,32619.75,VIL05-1B-60T,36.5,1245.04,6.77,1,24093,789,254299,1748,930,59143,303,912,12826,166,2329,439,38783,20187
65026.5,62,190,33846.2,VIL05-1B-62T,19,1180.07,7.06,1,25516,490,319179,812,913,35667,176,459,16306,546,2263,477,39004,20807
66936.9,64,375,35098.75,VIL05-1B-64T,37.5,975.07,6.96,1,26490,605,250800,1273,848,122572,261,788,13595,385,2434,507,40169,20664
69277.7,68,185,36905,VIL05-1B-68T,18.5,195.07,6.62,1,25062,1541,5864,7859,162,179628,568,4637,6645,1150,6492,1020,70809,23506
70862.7,70,480,38200,VIL05-1B-70T,48,1510.08,7.05,1,22639,1316,121810,4146,668,94577,622,2779,10713,1005,4242,555,51143,22432
72203,73,110,39430,VIL05-1B-73T,11,105.07,6.83,1,25944,145,297059,214,197,49772,396,134,13314,352,2116,435,44745,20656
73106.5,75,385,40361.75,VIL05-1B-75T,38.5,385.07,6.76,1,24774,769,232928,1658,950,63271,400,1190,20817,433,2887,387,45585,21649
74090.1,78,170,41305.9,VIL05-1B-78T,17,1375.07,7.13,1,24002,1208,112278,4015,811,144204,486,3139,9602,793,3545,618,50073,21371
75178.7,80,570,42367.1,VIL05-1B-80T,57,580.07,6.7,1,5702,156,17639,499,0,17170,108,471,2460,317,941,3171,15540,6057
77100.6,84,265,44305,VIL05-1B-84T,26.5,265.18,6.97,0,15798,159,152018,270,218,13595,326,363,20499,549,1993,293,34245,15566
78421.5,87,145,45625.6,VIL05-1B-87T,14.5,155.07,7,1,23355,1323,75732,4964,363,167894,429,2464,9033,541,3967,669,49648,20451
79880.2,89,275,46983.25,VIL05-1B-89T,27.5,1370.07,7.1,1,25264,1191,125870,4161,2040,189150,339,2424,6083,741,3377,892,44861,21109
81225.7,91,285,48239.3,VIL05-1B-91T,28.5,895.07,7.14,1,22325,1912,103311,5522,1380,106308,452,2523,6988,1327,4831,682,51628,22346
83262.4,95,55,49977.85,VIL05-1B-95T,5.5,660.07,7.13,1,26827,1191,21820,5627,195,194362,786,3060,5448,1172,6208,731,75652,23489
85625.3,97,110,51013.5,VIL05-1B-97T,11,120.07,6.91,1,23967,873,222529,1907,479,62158,389,593,13333,722,2904,206,45209,21337
88052.8,100,20,52037,VIL05-1B-100T,2,20.07,6.99,1,22904,1592,175294,2926,770,94499,341,1409,9907,682,2858,426,42639,21361
90420.6,102,125,53065,VIL05-1B-102T,12.5,1250.08,7.25,1,23525,1846,190582,2974,782,80977,402,1470,9831,512,3333,479,44575,21840
93421.4,105,70,54173.8,VIL05-1B-105T,7,825.07,6.94,1,22898,1489,199930,2831,1266,68604,546,1332,8333,896,3264,281,42647,21337
96239,107,305,55242.6,VIL05-1B-107T,30.5,700.07,6.92,1,24272,819,250467,1391,717,49415,484,999,15040,518,2617,248,43597,20494
99487,109,400,56435,VIL05-1B-109T,40,395.07,7.29,1,22969,1473,133604,3482,505,123234,583,1806,8591,724,3489,424,45054,21277
102124.6,111,400,57484,VIL05-1B-111T,40,1615.07,7.2,1,26090,293,355535,255,647,17541,249,0,18364,446,1873,343,38196,20989
105184.5,114,310,58628,VIL05-1B-114T,31,900.07,6.82,1,25449,216,316171,287,401,11489,506,0,20744,475,2289,511,43038,20652
107908.9,116,340,59588.6,VIL05-1B-116T,34,760.08,7.06,1,23854,1097,219684,2242,964,72647,329,1346,12709,532,2467,313,42211,20644
110235.5,119,100,60574,VIL05-1B-119T,10,720.07,7.08,1,25999,301,346582,325,622,21133,506,142,22336,385,1928,308,37980,19953
112742.6,121,515,61556.4,VIL05-1B-121T,51.5,515.07,6.96,1,25374,292,351018,268,170,9243,516,48,14075,254,1735,476,38688,19835
114986.8,124,130,62505.3,VIL05-1B-124T,13,130.07,6.92,1,24143,84,300197,60,168,11493,365,0,11294,401,2285,521,42692,21323
116462,126,30,63264.3,,,665.17,6.66,0,19634,242,170863,587,280,31266,528,639,15168,1363,3468,664,49678,22441
117576.2,127,135,63801.35,VIL05-1B-127T,13.5,135.07,7.15,1,19997,2986,117363,2745,793,33086,220,1993,5205,363,4968,380,53878,23247
119842.3,129,280,64874.8,VIL05-1B-129T,28,1490.07,7.03,1,23102,1363,217928,2372,835,49438,375,1153,11491,612,3409,375,44949,21986
121589.1,132,185,66001.5,VIL05-1B-132T,18.5,1085.07,7.21,1,25194,126,287854,140,386,7534,547,0,19558,757,2163,448,50819,21853
123279.7,134,395,67060.5,VIL05-1B-134T,39.5,1000.07,6.94,1,24104,1339,198973,2332,980,89959,339,1641,15347,677,3185,393,45438,21625
125426.9,137,330,68650.5,VIL05-1B-137T,33,520.07,6.68,1,23568,154,247571,254,293,20431,403,144,18387,683,2893,484,51186,22124
126892.2,141,135,69804.55,VIL05-1B-141T,13.5,745.07,7.1,1,27051,185,367765,108,531,6502,541,92,36328,829,2235,463,40520,20142
128015.6,144,205,70751.65,VIL05-1B-144T,20.5,815.07,7.43,1,26454,136,252011,351,246,22715,528,45,23182,618,2662,496,62543,22431
129495.2,147,140,71980,VIL05-1B-147T,14,480.07,7,1,25483,1279,50853,6551,52,153500,992,2040,6881,1053,6067,709,70249,22892
131168.7,149,160,73203.2,VIL05-1B-149T,16,165.07,6.91,1,19632,2986,73102,1416,141,34517,250,1283,4269,181,3584,305,60891,23877
131479,149,570,73621.4,VIL05-1B-149T,57,575.07,7.02,1,12656,890,27763,2992,315,72753,295,1796,3998,638,2893,2739,30733,12093